# header:
#   title: Yb173(n,res) resonance parameter
#   source: EXFOR
#   user: Arjan Koning
#   date: 2024-01-18
#   format: YANDF-0.1
# exfor:
#   author: Liou
#   year: 1973
#   subentry: 100810151
#   X4 reaction: 70-YB-173(N,G),,WID
#   X4 source: IAEA-NDS C5 file, database version 2023-08-08
#   X4 link: https://nds.iaea.org/EXFOR/100810151
# target:
#   Z: 70
#   A: 173
#   nuclide: Yb173
# reaction:
#   type: (n,res)
#   ENDF_MF: 402
#   ENDF_MT: 151
# datablock:
#   quantity: resonance parameter
#   columns: 5
#   entries: 33
##       E             dE             par           dpar       Normalization
##     [eV]           [eV]            []             []             []
   4.510000E-06   2.000000E-08   6.600001E-02   8.000000E-03   1.000000E+00
   1.763000E-05   4.000000E-08   7.800000E-02   9.000000E-03   1.000000E+00
   3.139000E-05   8.000000E-08   6.800000E-02   8.000000E-03   1.000000E+00
   3.572000E-05   5.000000E-08   8.400001E-02   9.000000E-03   1.000000E+00
   4.516000E-05   7.000000E-08   7.600001E-02   9.000000E-03   1.000000E+00
   5.347000E-05   9.000000E-08   7.800000E-02   1.200000E-02   1.000000E+00
   5.888000E-05   5.000000E-08   7.400000E-02   1.000000E-02   1.000000E+00
   6.618000E-05   6.000000E-08   7.200000E-02   1.200000E-02   1.000000E+00
   6.891001E-05   6.000000E-08   6.900001E-02   1.400000E-02   1.000000E+00
   7.614000E-05   7.000000E-08   6.800000E-02   8.000000E-03   1.000000E+00
   9.642000E-05   1.000000E-07   7.500000E-02   1.500000E-02   1.000000E+00
   1.057500E-04   1.200000E-07   7.000001E-02   7.000000E-03   1.000000E+00
   1.110700E-04   1.300000E-07   7.300001E-02   1.500000E-02   1.000000E+00
   1.243200E-04   1.500000E-07   6.300000E-02   1.200000E-02   1.000000E+00
   1.288400E-04   1.600000E-07   7.400000E-02   9.000000E-03   1.000000E+00
   1.453300E-04   1.900000E-07   6.400000E-02   1.500000E-02   1.000000E+00
   1.688100E-04   2.400000E-07   7.200000E-02   1.000000E-02   1.000000E+00
   1.973100E-04   1.500000E-07   7.700001E-02   1.800000E-02   1.000000E+00
   2.296400E-04   1.900000E-07   5.800000E-02   1.400000E-02   1.000000E+00
   2.506000E-04   2.200000E-07   7.000001E-02   1.000000E-02   1.000000E+00
   2.566000E-04   2.300000E-07   8.500001E-02   1.500000E-02   1.000000E+00
   2.773600E-04   2.500000E-07   7.200000E-02   1.400000E-02   1.000000E+00
   2.835300E-04   2.600000E-07   6.200000E-02   1.200000E-02   1.000000E+00
   3.071300E-04   2.900000E-07   9.500001E-02   1.200000E-02   1.000000E+00
   3.183300E-04   3.100000E-07   8.300000E-02   1.500000E-02   1.000000E+00
   3.400600E-04   3.400000E-07   7.600001E-02   1.000000E-02   1.000000E+00
   3.511400E-04   3.600000E-07   7.400000E-02   1.000000E-02   1.000000E+00
   3.712400E-04   3.900000E-07   6.900001E-02   1.700000E-02   1.000000E+00
   4.389400E-04   2.500000E-07   6.600001E-02   1.400000E-02   1.000000E+00
   4.476200E-04   2.600000E-07   5.800000E-02   1.500000E-02   1.000000E+00
   4.881600E-04   3.000000E-07   8.900001E-02   1.500000E-02   1.000000E+00
   5.144200E-04   3.200000E-07   1.000000E-01   2.200000E-02   1.000000E+00
   5.475700E-04   3.500000E-07   7.800000E-02   1.500000E-02   1.000000E+00
# reference:
#   author: H.I.LIOU,H.S.CAMARDA,G.HACKEN,F.RAHN,J.RAINWATER, M.SLAGOWITZ,S.WYNCHANK
#   title: Neutron resonance spectroscopy. XI. The separated  isotopes of Yb.
#   journal: Jour: Physical Review, Part C, Nuclear Physics, Vol.7, p.823 (1973)
