# header:
#   title: Ni62(p,res) resonance parameter
#   source: EXFOR
#   user: Arjan Koning
#   date: 2024-01-18
#   format: YANDF-0.1
# exfor:
#   author: Arai
#   year: 1976
#   subentry: E14940121
#   X4 reaction: 28-NI-62(P,TOT),,WID
#   X4 source: IAEA-NDS C5 file, database version 2023-08-08
#   X4 link: https://nds.iaea.org/EXFOR/E14940121
# target:
#   Z: 28
#   A: 62
#   nuclide: Ni62
# reaction:
#   type: (p,res)
#   ENDF_MF: 402
#   ENDF_MT: 151
# datablock:
#   quantity: resonance parameter
#   columns: 5
#   entries: 49
##       E             dE             par           dpar       Normalization
##     [eV]           [eV]            []             []             []
   2.993500E+00   0.000000E+00   2.000000E+01   6.000000E+00   1.000000E+00
   3.035700E+00   0.000000E+00   2.490000E+01   3.800000E+00   1.000000E+00
   3.037700E+00   0.000000E+00   5.100000E+00   3.500000E+00   1.000000E+00
   3.044300E+00   0.000000E+00   1.680000E+01   3.900000E+00   1.000000E+00
   3.046000E+00   0.000000E+00   7.340000E+01   4.800000E+00   1.000000E+00
   3.049600E+00   0.000000E+00   1.510000E+01   4.000000E+00   1.000000E+00
   3.052000E+00   0.000000E+00   2.110000E+01   3.600000E+00   1.000000E+00
   3.059800E+00   0.000000E+00   7.090000E+01   4.300000E+00   1.000000E+00
   3.061800E+00   0.000000E+00   1.920000E+01   3.400000E+00   1.000000E+00
   3.132800E+00   0.000000E+00   3.000000E+01   0.000000E+00   1.000000E+00
   3.202000E+00   0.000000E+00   3.000000E+01   0.000000E+00   1.000000E+00
   3.207200E+00   0.000000E+00   3.000000E+01   0.000000E+00   1.000000E+00
   3.293200E+00   0.000000E+00   1.000000E+01   0.000000E+00   1.000000E+00
   3.294200E+00   0.000000E+00   1.200000E+01   0.000000E+00   1.000000E+00
   3.295000E+00   0.000000E+00   6.300000E+01   0.000000E+00   1.000000E+00
   3.320200E+00   0.000000E+00   1.600000E+01   0.000000E+00   1.000000E+00
   3.352600E+00   0.000000E+00   4.000000E+01   0.000000E+00   1.000000E+00
   3.440700E+00   0.000000E+00   6.600000E+01   0.000000E+00   1.000000E+00
   3.471000E+00   0.000000E+00   6.880000E+01   7.000000E+00   1.000000E+00
   3.482400E+00   0.000000E+00   8.210000E+01   1.160000E+01   1.000000E+00
   3.500000E+00   0.000000E+00   1.704000E+02   1.520000E+01   1.000000E+00
   3.500800E+00   0.000000E+00   6.630000E+01   1.350000E+01   1.000000E+00
   3.504800E+00   0.000000E+00   8.560000E+01   1.110000E+01   1.000000E+00
   3.508800E+00   0.000000E+00   1.042000E+02   1.000000E+01   1.000000E+00
   3.509700E+00   0.000000E+00   1.910000E+02   1.270000E+01   1.000000E+00
   3.516600E+00   0.000000E+00   2.070000E+02   1.300000E+01   1.000000E+00
   3.519600E+00   0.000000E+00   1.254000E+02   1.060000E+01   1.000000E+00
   3.529300E+00   0.000000E+00   1.600000E+02   1.290000E+01   1.000000E+00
   3.530200E+00   0.000000E+00   5.115000E+02   1.890000E+01   1.000000E+00
   3.532600E+00   0.000000E+00   5.090000E+01   8.200000E+00   1.000000E+00
   3.542200E+00   0.000000E+00   4.100000E+01   5.200000E+00   1.000000E+00
   3.549600E+00   0.000000E+00   3.060000E+01   6.900000E+00   1.000000E+00
   3.553200E+00   0.000000E+00   5.010000E+01   7.900000E+00   1.000000E+00
   3.566000E+00   0.000000E+00   2.500000E+01   0.000000E+00   1.000000E+00
   3.617800E+00   0.000000E+00   3.500000E+01   0.000000E+00   1.000000E+00
   3.748200E+00   0.000000E+00   4.000000E+01   0.000000E+00   1.000000E+00
   3.755200E+00   0.000000E+00   4.000000E+00   0.000000E+00   1.000000E+00
   3.760000E+00   0.000000E+00   3.210000E+01   7.100000E+00   1.000000E+00
   3.761300E+00   0.000000E+00   1.250000E+01   4.400000E+00   1.000000E+00
   3.768100E+00   0.000000E+00   4.550000E+01   6.200000E+00   1.000000E+00
   3.787500E+00   0.000000E+00   4.000000E+00   0.000000E+00   1.000000E+00
   3.791300E+00   0.000000E+00   4.000000E+00   0.000000E+00   1.000000E+00
   3.795700E+00   0.000000E+00   4.000000E+00   0.000000E+00   1.000000E+00
   3.798100E+00   0.000000E+00   2.650000E+01   3.200000E+00   1.000000E+00
   3.805300E+00   0.000000E+00   2.170000E+01   3.900000E+00   1.000000E+00
   3.805300E+00   0.000000E+00   4.000000E+00   0.000000E+00   1.000000E+00
   3.827400E+00   0.000000E+00   2.340000E+01   4.100000E+00   1.000000E+00
   3.854500E+00   0.000000E+00   7.200000E+01   7.300000E+00   1.000000E+00
   3.861400E+00   0.000000E+00   8.170000E+01   7.300000E+00   1.000000E+00
# reference:
#   author: E.Arai, M.Ogawa, H.Sato
#   title: High-resolution measurements of analogue states in 59, 61, 63Cu
#   journal: Jour: Nuclear Physics, Section A, Vol.256, Issue.1, p.127 (1976)
