# header:
#   title: Mo98(n,res) resonance parameter
#   source: EXFOR
#   user: Arjan Koning
#   date: 2024-01-18
#   format: YANDF-0.1
# exfor:
#   author: Weigmann
#   year: 1971
#   subentry: 20398032
#   X4 reaction: (42-MO-98(N,EL),,WID,,G)*(42-MO-98(N,G),,WID)/(42-MO-98(N,TO
#   X4 source: IAEA-NDS C5 file, database version 2023-08-08
#   X4 link: https://nds.iaea.org/EXFOR/20398032
# target:
#   Z: 42
#   A: 98
#   nuclide: Mo98
# reaction:
#   type: (n,res)
#   ENDF_MF: 402
#   ENDF_MT: 151
# datablock:
#   quantity: resonance parameter
#   columns: 5
#   entries: 23
##       E             dE             par           dpar       Normalization
##     [eV]           [eV]            []             []             []
   1.208000E-05   0.000000E+00   5.800000E-05   4.000000E-06   1.000000E+00
   4.021200E-04   0.000000E+00   3.200000E-03   2.000000E-04   1.000000E+00
   4.296800E-04   0.000000E+00   4.600000E-02   4.000000E-03   1.000000E+00
   4.678400E-04   0.000000E+00   8.500001E-02   8.000000E-03   1.000000E+00
   6.124800E-04   0.000000E+00   4.500000E-02   3.000000E-03   1.000000E+00
   8.180200E-04   0.000000E+00   8.200000E-02   7.000000E-03   1.000000E+00
   1.122300E-03   0.000000E+00   1.920000E-02   1.300000E-03   1.000000E+00
   1.526600E-03   0.000000E+00   6.800000E-02   6.000000E-03   1.000000E+00
   1.922200E-03   0.000000E+00   2.000000E-02   2.000000E-03   1.000000E+00
   2.021300E-03   0.000000E+00   2.500000E-03   2.000000E-04   1.000000E+00
   2.175700E-03   0.000000E+00   7.300001E-02   6.000000E-03   1.000000E+00
   2.460400E-03   0.000000E+00   5.500000E-02   5.000000E-03   1.000000E+00
   2.547300E-03   0.000000E+00   6.500001E-02   6.000000E-03   1.000000E+00
   2.609500E-03   0.000000E+00   4.100000E-02   4.000000E-03   1.000000E+00
   2.945600E-03   0.000000E+00   3.900000E-02   4.000000E-03   1.000000E+00
   3.260800E-03   0.000000E+00   3.700000E-02   4.000000E-03   1.000000E+00
   3.295100E-03   0.000000E+00   7.900000E-02   8.000000E-03   1.000000E+00
   3.794700E-03   0.000000E+00   1.400000E-01   1.300000E-02   1.000000E+00
   4.012800E-03   0.000000E+00   1.180000E-01   1.100000E-02   1.000000E+00
   4.471200E-03   0.000000E+00   7.200000E-02   7.000000E-03   1.000000E+00
   4.571200E-03   0.000000E+00   1.560000E-01   1.400000E-02   1.000000E+00
   4.842300E-03   0.000000E+00   1.680000E-01   1.500000E-02   1.000000E+00
   5.261000E-03   0.000000E+00   1.300000E-01   1.300000E-02   1.000000E+00
# reference:
#   author: H.WEIGMANN, G.ROHR, J.WINTER
#   title: -NEUTRON CAPTURE MEASUREMENTS AND RESONANCE PARAMETERS  OF MO-ISOTOPES.-
#   journal: Conf: 3rd Conf.Neutron Cross-Sections+Tech.,Knoxville 1971, p.749 (1971)
