# header:
#   title: Dy160(n,res) resonance parameter
#   source: EXFOR
#   user: Arjan Koning
#   date: 2024-01-18
#   format: YANDF-0.1
# exfor:
#   author: Liou
#   year: 1975
#   subentry: 105250021
#   X4 reaction: 66-DY-160(N,0),,EN
#   X4 source: IAEA-NDS C5 file, database version 2023-08-08
#   X4 link: https://nds.iaea.org/EXFOR/105250021
# target:
#   Z: 66
#   A: 160
#   nuclide: Dy160
# reaction:
#   type: (n,res)
#   ENDF_MF: 402
#   ENDF_MT: 151
# datablock:
#   quantity: resonance parameter
#   columns: 5
#   entries: 64
##       E             dE             par           dpar       Normalization
##     [eV]           [eV]            []             []             []
   1.045000E-05   3.000000E-08   1.045000E+01   3.000000E-02   1.000000E+00
   2.047000E-05   5.000000E-08   2.047000E+01   5.000000E-02   1.000000E+00
   3.490000E-05   2.000000E-08   3.490000E+01   2.000000E-02   1.000000E+00
   7.314000E-05   7.000000E-08   7.314000E+01   7.000000E-02   1.000000E+00
   8.555999E-05   1.300000E-07   8.556000E+01   1.300000E-01   1.000000E+00
   1.156200E-04   1.100000E-07   1.156200E+02   1.100000E-01   1.000000E+00
   1.363500E-04   1.400000E-07   1.363500E+02   1.400000E-01   1.000000E+00
   1.556800E-04   1.700000E-07   1.556800E+02   1.700000E-01   1.000000E+00
   1.782700E-04   2.100000E-07   1.782700E+02   2.100000E-01   1.000000E+00
   2.022000E-04   2.600000E-07   2.022000E+02   2.600000E-01   1.000000E+00
   2.463200E-04   2.200000E-07   2.463200E+02   2.200000E-01   1.000000E+00
   2.719400E-04   2.500000E-07   2.719400E+02   2.500000E-01   1.000000E+00
   3.206600E-04   1.600000E-07   3.206600E+02   1.600000E-01   1.000000E+00
   3.411500E-04   2.800000E-07   3.411500E+02   2.800000E-01   1.000000E+00
   3.792900E-04   3.300000E-07   3.792900E+02   3.300000E-01   1.000000E+00
   3.942900E-04   3.400000E-07   3.942900E+02   3.400000E-01   1.000000E+00
   3.987900E-04   3.500000E-07   3.987900E+02   3.500000E-01   1.000000E+00
   4.301000E-04   3.900000E-07   4.301000E+02   3.900000E-01   1.000000E+00
   5.221700E-04   2.600000E-07   5.221700E+02   2.600000E-01   1.000000E+00
   5.774400E-04   3.100000E-07   5.774400E+02   3.100000E-01   1.000000E+00
   5.899700E-04   4.000000E-07   5.899700E+02   4.000000E-01   1.000000E+00
   6.255600E-04   4.400000E-07   6.255600E+02   4.400000E-01   1.000000E+00
   6.536000E-04   4.700000E-07   6.536000E+02   4.700000E-01   1.000000E+00
   6.795200E-04   3.900000E-07   6.795200E+02   3.900000E-01   1.000000E+00
   7.036200E-04   4.100000E-07   7.036200E+02   4.100000E-01   1.000000E+00
   7.295500E-04   4.300000E-07   7.295500E+02   4.300000E-01   1.000000E+00
   7.364100E-04   4.400000E-07   7.364100E+02   4.400000E-01   1.000000E+00
   8.172000E-04   5.100000E-07   8.172000E+02   5.100000E-01   1.000000E+00
   8.452100E-04   5.400000E-07   8.452100E+02   5.400000E-01   1.000000E+00
   8.686000E-04   7.200000E-07   8.686000E+02   7.200000E-01   1.000000E+00
   8.891400E-04   7.400000E-07   8.891400E+02   7.400000E-01   1.000000E+00
   9.719900E-04   8.500000E-07   9.719900E+02   8.500000E-01   1.000000E+00
   9.893000E-04   4.000000E-07   9.893000E+02   4.000000E-01   1.000000E+00
   1.053500E-03   1.000000E-06   1.053500E+03   1.000000E+00   1.000000E+00
   1.085900E-03   4.000000E-07   1.085900E+03   4.000000E-01   1.000000E+00
   1.103000E-03   1.100000E-06   1.103000E+03   1.100000E+00   1.000000E+00
   1.133600E-03   1.100000E-06   1.133600E+03   1.100000E+00   1.000000E+00
   1.139200E-03   1.100000E-06   1.139200E+03   1.100000E+00   1.000000E+00
   1.161500E-03   1.100000E-06   1.161500E+03   1.100000E+00   1.000000E+00
   1.201300E-03   1.200000E-06   1.201300E+03   1.200000E+00   1.000000E+00
   1.244300E-03   1.200000E-06   1.244300E+03   1.200000E+00   1.000000E+00
   1.279400E-03   1.300000E-06   1.279400E+03   1.300000E+00   1.000000E+00
   1.313100E-03   5.000000E-07   1.313100E+03   5.000000E-01   1.000000E+00
   1.367400E-03   1.400000E-06   1.367400E+03   1.400000E+00   1.000000E+00
   1.401400E-03   1.500000E-06   1.401400E+03   1.500000E+00   1.000000E+00
   1.411700E-03   1.500000E-06   1.411700E+03   1.500000E+00   1.000000E+00
   1.437200E-03   3.000000E-07   1.437200E+03   3.000000E-01   1.000000E+00
   1.495300E-03   3.000000E-07   1.495300E+03   3.000000E-01   1.000000E+00
   1.541700E-03   4.000000E-07   1.541700E+03   4.000000E-01   1.000000E+00
   1.592100E-03   4.000000E-07   1.592100E+03   4.000000E-01   1.000000E+00
   1.625300E-03   1.800000E-06   1.625300E+03   1.800000E+00   1.000000E+00
   1.648300E-03   7.000000E-07   1.648300E+03   7.000000E-01   1.000000E+00
   1.710300E-03   4.000000E-07   1.710300E+03   4.000000E-01   1.000000E+00
   1.721000E-03   4.000000E-07   1.721000E+03   4.000000E-01   1.000000E+00
   1.746200E-03   2.100000E-06   1.746200E+03   2.100000E+00   1.000000E+00
   1.763600E-03   2.100000E-06   1.763600E+03   2.100000E+00   1.000000E+00
   1.785600E-03   2.100000E-06   1.785600E+03   2.100000E+00   1.000000E+00
   1.829700E-03   2.200000E-06   1.829700E+03   2.200000E+00   1.000000E+00
   1.861600E-03   5.000000E-07   1.861600E+03   5.000000E-01   1.000000E+00
   1.874900E-03   5.000000E-07   1.874900E+03   5.000000E-01   1.000000E+00
   1.899600E-03   5.000000E-07   1.899600E+03   5.000000E-01   1.000000E+00
   1.937800E-03   5.000000E-07   1.937800E+03   5.000000E-01   1.000000E+00
   1.944300E-03   5.000000E-07   1.944300E+03   5.000000E-01   1.000000E+00
   1.994300E-03   2.500000E-06   1.994300E+03   2.500000E+00   1.000000E+00
# reference:
#   author: H.I.Liou,G.Hacken,J.Rainwater,U.N.Singh
#   title: Neutron resonance spectroscopy: The separated isotopes  of Dy
#   journal: Jour: Physical Review, Part C, Nuclear Physics, Vol.11, p.462 (1975)
