# header:
#   title: Mo100(n,res) resonance parameter
#   source: EXFOR
#   user: Arjan Koning
#   date: 2024-01-18
#   format: YANDF-0.1
# exfor:
#   author: Weigmann
#   year: 1971
#   subentry: 20398037
#   X4 reaction: (42-MO-100(N,EL),,WID,,G)*(42-MO-100(N,G),,WID)/(42-MO-100(N
#   X4 source: IAEA-NDS C5 file, database version 2023-08-08
#   X4 link: https://nds.iaea.org/EXFOR/20398037
# target:
#   Z: 42
#   A: 100
#   nuclide: Mo100
# reaction:
#   type: (n,res)
#   ENDF_MF: 402
#   ENDF_MT: 151
# datablock:
#   quantity: resonance parameter
#   columns: 5
#   entries: 25
##       E             dE             par           dpar       Normalization
##     [eV]           [eV]            []             []             []
   9.741000E-05   0.000000E+00   3.600000E-04   3.000000E-05   1.000000E+00
   3.641100E-04   0.000000E+00   6.300000E-02   6.000000E-03   1.000000E+00
   5.071100E-04   0.000000E+00   4.200000E-03   3.000000E-04   1.000000E+00
   5.358100E-04   0.000000E+00   4.000000E-03   3.000000E-04   1.000000E+00
   7.856800E-04   0.000000E+00   5.400000E-03   4.000000E-04   1.000000E+00
   1.069300E-03   0.000000E+00   8.000001E-02   7.000000E-03   1.000000E+00
   1.260200E-03   0.000000E+00   6.400000E-02   6.000000E-03   1.000000E+00
   1.403800E-03   0.000000E+00   3.300000E-02   3.000000E-03   1.000000E+00
   1.696400E-03   0.000000E+00   1.000000E-01   9.000000E-03   1.000000E+00
   1.764800E-03   0.000000E+00   1.700000E-02   1.600000E-03   1.000000E+00
   1.936100E-03   0.000000E+00   5.300000E-02   5.000000E-03   1.000000E+00
   2.061700E-03   0.000000E+00   6.000000E-03   7.000000E-04   1.000000E+00
   2.418600E-03   0.000000E+00   9.200001E-02   8.000000E-03   1.000000E+00
   2.629100E-03   0.000000E+00   5.600000E-02   5.000000E-03   1.000000E+00
   2.663800E-03   0.000000E+00   1.100000E-02   1.100000E-03   1.000000E+00
   2.951600E-03   0.000000E+00   3.900000E-02   4.000000E-03   1.000000E+00
   3.001900E-03   0.000000E+00   4.900000E-02   5.000000E-03   1.000000E+00
   3.069000E-03   0.000000E+00   4.500000E-02   4.000000E-03   1.000000E+00
   3.260800E-03   0.000000E+00   6.600001E-02   7.000000E-03   1.000000E+00
   3.539300E-03   0.000000E+00   7.900000E-02   8.000000E-03   1.000000E+00
   3.601700E-03   0.000000E+00   5.900000E-02   6.000000E-03   1.000000E+00
   4.151000E-03   0.000000E+00   1.700000E-02   1.700000E-03   1.000000E+00
   4.504200E-03   0.000000E+00   6.700000E-02   6.000000E-03   1.000000E+00
   4.543100E-03   0.000000E+00   7.500000E-02   7.000000E-03   1.000000E+00
   4.727500E-03   0.000000E+00   4.600000E-02   4.000000E-03   1.000000E+00
# reference:
#   author: H.WEIGMANN, G.ROHR, J.WINTER
#   title: -NEUTRON CAPTURE MEASUREMENTS AND RESONANCE PARAMETERS  OF MO-ISOTOPES.-
#   journal: Conf: 3rd Conf.Neutron Cross-Sections+Tech.,Knoxville 1971, p.749 (1971)
