# header:
#   title: Rb87(n,res) resonance parameter
#   source: EXFOR
#   user: Arjan Koning
#   date: 2024-01-18
#   format: YANDF-0.1
# exfor:
#   author: Ohkubo
#   year: 1980
#   subentry: 217470031
#   X4 reaction: 37-RB-87(N,0),,EN
#   X4 source: IAEA-NDS C5 file, database version 2023-08-08
#   X4 link: https://nds.iaea.org/EXFOR/217470031
# target:
#   Z: 37
#   A: 87
#   nuclide: Rb87
# reaction:
#   type: (n,res)
#   ENDF_MF: 402
#   ENDF_MT: 151
# datablock:
#   quantity: resonance parameter
#   columns: 5
#   entries: 42
##       E             dE             par           dpar       Normalization
##     [eV]           [eV]            []             []             []
   2.671000E-04   3.000000E-08   2.671000E+02   3.000000E-02   1.000000E+00
   3.769000E-04   6.000000E-08   3.769000E+02   6.000000E-02   1.000000E+00
   8.690000E-04   2.000000E-07   8.690000E+02   2.000000E-01   1.000000E+00
   3.823300E-03   2.100000E-06   3.823300E+03   2.100000E+00   1.000000E+00
   5.115000E-03   3.300000E-06   5.115000E+03   3.300000E+00   1.000000E+00
   7.344000E-03   6.700000E-06   7.344000E+03   6.700000E+00   1.000000E+00
   7.560000E-03   5.900000E-06   7.560000E+03   5.900000E+00   1.000000E+00
   8.768000E-03   7.400000E-06   8.768000E+03   7.400000E+00   1.000000E+00
   9.840000E-03   8.900000E-06   9.840000E+03   8.900000E+00   1.000000E+00
   1.034600E-02   9.500000E-06   1.034600E+04   9.500000E+00   1.000000E+00
   1.106000E-02   1.100000E-05   1.106000E+04   1.100000E+01   1.000000E+00
   1.386500E-02   1.400000E-05   1.386500E+04   1.400000E+01   1.000000E+00
   1.851000E-02   2.200000E-05   1.851000E+04   2.200000E+01   1.000000E+00
   2.196000E-02   2.900000E-05   2.196000E+04   2.900000E+01   1.000000E+00
   2.313000E-02   3.200000E-05   2.313000E+04   3.200000E+01   1.000000E+00
   2.386000E-02   3.300000E-05   2.386000E+04   3.300000E+01   1.000000E+00
   2.633000E-02   3.800000E-05   2.633000E+04   3.800000E+01   1.000000E+00
   2.786500E-02   4.200000E-05   2.786500E+04   4.200000E+01   1.000000E+00
   2.847000E-02   4.300000E-05   2.847000E+04   4.300000E+01   1.000000E+00
   2.989000E-02   4.700000E-05   2.989000E+04   4.700000E+01   1.000000E+00
   3.164000E-02   5.100000E-05   3.164000E+04   5.100000E+01   1.000000E+00
   3.353000E-02   5.600000E-05   3.353000E+04   5.600000E+01   1.000000E+00
   3.723000E-02   6.500000E-05   3.723000E+04   6.500000E+01   1.000000E+00
   4.119000E-02   7.600000E-05   4.119000E+04   7.600000E+01   1.000000E+00
   4.203000E-02   7.800000E-05   4.203000E+04   7.800000E+01   1.000000E+00
   4.324000E-02   8.200000E-05   4.324000E+04   8.200000E+01   1.000000E+00
   4.718000E-02   9.300000E-05   4.718000E+04   9.300000E+01   1.000000E+00
   4.871000E-02   9.800000E-05   4.871000E+04   9.800000E+01   1.000000E+00
   5.179000E-02   1.070000E-04   5.179000E+04   1.070000E+02   1.000000E+00
   5.355000E-02   1.130000E-04   5.355000E+04   1.130000E+02   1.000000E+00
   5.603000E-02   1.200000E-04   5.603000E+04   1.200000E+02   1.000000E+00
   5.945000E-02   1.300000E-04   5.945000E+04   1.300000E+02   1.000000E+00
   6.037000E-02   1.300000E-04   6.037000E+04   1.300000E+02   1.000000E+00
   6.122400E-02   3.000000E-05   6.122400E+04   3.000000E+01   1.000000E+00
   6.508000E-02   1.500000E-04   6.508000E+04   1.500000E+02   1.000000E+00
   6.758000E-02   1.600000E-04   6.758000E+04   1.600000E+02   1.000000E+00
   7.090000E-02   1.700000E-04   7.090000E+04   1.700000E+02   1.000000E+00
   7.266000E-02   1.700000E-04   7.266000E+04   1.700000E+02   1.000000E+00
   8.606000E-02   2.300000E-04   8.606000E+04   2.300000E+02   1.000000E+00
   8.865000E-02   2.300000E-04   8.865000E+04   2.300000E+02   1.000000E+00
   9.999000E-02   2.800000E-04   9.999000E+04   2.800000E+02   1.000000E+00
   1.011500E-01   2.900000E-04   1.011500E+05   2.900000E+02   1.000000E+00
# reference:
#   author: M.OHKUBO,Y.KAWARASAKI
#   title: -RESONANCE PARAMETERS OF RUBIDIUM UP TO 15 KEV.-
#   journal: Prog: Japanese report to NEANDC, No.67, p.2 (1980)
