# header:
#   title: Mo95(n,res) resonance parameter
#   source: EXFOR
#   user: Arjan Koning
#   date: 2024-01-18
#   format: YANDF-0.1
# exfor:
#   author: Weigmann
#   year: 1971
#   subentry: 20398010
#   X4 reaction: (42-MO-95(N,EL),,WID,,G)*(42-MO-95(N,G),,WID)/(42-MO-95(N,TO
#   X4 source: IAEA-NDS C5 file, database version 2023-08-08
#   X4 link: https://nds.iaea.org/EXFOR/20398010
# target:
#   Z: 42
#   A: 95
#   nuclide: Mo95
# reaction:
#   type: (n,res)
#   ENDF_MF: 402
#   ENDF_MT: 151
# datablock:
#   quantity: resonance parameter
#   columns: 5
#   entries: 55
##       E             dE             par           dpar       Normalization
##     [eV]           [eV]            []             []             []
   4.490000E-05   0.000000E+00   5.000000E-02   3.000000E-03   1.000000E+00
   1.105000E-04   0.000000E+00   9.000000E-05   2.000000E-05   1.000000E+00
   1.180000E-04   0.000000E+00   1.300000E-04   2.000000E-05   1.000000E+00
   1.594900E-04   0.000000E+00   7.500000E-03   5.000000E-04   1.000000E+00
   2.182800E-04   0.000000E+00   9.700000E-04   7.700000E-05   1.000000E+00
   2.458400E-04   0.000000E+00   2.400000E-04   3.300000E-05   1.000000E+00
   2.635900E-04   0.000000E+00   8.100000E-04   7.200000E-05   1.000000E+00
   3.310200E-04   0.000000E+00   1.700000E-03   3.900000E-04   1.000000E+00
   3.585900E-04   0.000000E+00   5.600000E-02   4.000000E-03   1.000000E+00
   4.182000E-04   0.000000E+00   5.100000E-04   7.100000E-05   1.000000E+00
   4.696900E-04   0.000000E+00   5.500000E-03   4.000000E-04   1.000000E+00
   5.544000E-04   0.000000E+00   3.200000E-02   3.000000E-03   1.000000E+00
   5.956700E-04   0.000000E+00   4.200000E-04   1.170000E-04   1.000000E+00
   6.300100E-04   0.000000E+00   1.010000E-02   6.000000E-04   1.000000E+00
   6.617800E-04   0.000000E+00   8.200000E-03   5.000000E-04   1.000000E+00
   6.801900E-04   0.000000E+00   7.000001E-02   5.000000E-03   1.000000E+00
   7.027700E-04   0.000000E+00   1.440000E-03   1.580000E-04   1.000000E+00
   7.082500E-04   0.000000E+00   6.300000E-03   4.000000E-04   1.000000E+00
   7.454600E-04   0.000000E+00   3.800000E-03   3.000000E-04   1.000000E+00
   7.698300E-04   0.000000E+00   1.200000E-02   7.000000E-04   1.000000E+00
   8.987400E-04   0.000000E+00   4.700000E-02   3.000000E-03   1.000000E+00
   9.321300E-04   0.000000E+00   1.720000E-03   2.750000E-04   1.000000E+00
   9.565000E-04   0.000000E+00   7.600000E-04   3.420000E-04   1.000000E+00
   9.807299E-04   0.000000E+00   1.750000E-02   1.100000E-03   1.000000E+00
   1.011100E-03   0.000000E+00   5.900000E-03   5.000000E-04   1.000000E+00
   1.023800E-03   0.000000E+00   3.800000E-02   3.000000E-03   1.000000E+00
   1.035700E-03   0.000000E+00   6.200000E-03   5.000000E-04   1.000000E+00
   1.059200E-03   0.000000E+00   4.400000E-03   3.000000E-04   1.000000E+00
   1.122300E-03   0.000000E+00   1.970000E-03   3.150000E-04   1.000000E+00
   1.144600E-03   0.000000E+00   4.600000E-02   4.000000E-03   1.000000E+00
   1.170500E-03   0.000000E+00   9.300000E-03   7.000000E-04   1.000000E+00
   1.203400E-03   0.000000E+00   5.200000E-02   4.000000E-03   1.000000E+00
   1.296900E-03   0.000000E+00   5.200000E-03   5.000000E-04   1.000000E+00
   1.340700E-03   0.000000E+00   3.000000E-02   2.000000E-03   1.000000E+00
   1.360600E-03   0.000000E+00   2.900000E-03   4.000000E-04   1.000000E+00
   1.386700E-03   0.000000E+00   5.500000E-03   5.000000E-04   1.000000E+00
   1.419300E-03   0.000000E+00   6.700000E-02   6.000000E-03   1.000000E+00
   1.437000E-03   0.000000E+00   7.200000E-03   6.000000E-04   1.000000E+00
   1.495500E-03   0.000000E+00   8.000001E-02   9.000000E-03   1.000000E+00
   1.570000E-03   0.000000E+00   5.700000E-03   4.000000E-04   1.000000E+00
   1.576800E-03   0.000000E+00   5.000000E-03   4.000000E-04   1.000000E+00
   1.589500E-03   0.000000E+00   6.200000E-02   5.000000E-03   1.000000E+00
   1.677400E-03   0.000000E+00   4.900000E-02   4.000000E-03   1.000000E+00
   1.704100E-03   0.000000E+00   1.730000E-02   1.300000E-03   1.000000E+00
   1.766100E-03   0.000000E+00   7.000001E-02   6.000000E-03   1.000000E+00
   1.788000E-03   0.000000E+00   2.350000E-02   1.800000E-03   1.000000E+00
   1.841700E-03   0.000000E+00   1.600000E-02   1.200000E-03   1.000000E+00
   1.853300E-03   0.000000E+00   3.100000E-03   4.000000E-04   1.000000E+00
   1.925100E-03   0.000000E+00   1.500000E-02   1.200000E-03   1.000000E+00
   1.950200E-03   0.000000E+00   5.300000E-02   4.000000E-03   1.000000E+00
   1.961300E-03   0.000000E+00   1.200000E-02   9.000000E-04   1.000000E+00
   2.048100E-03   0.000000E+00   5.500000E-02   4.000000E-03   1.000000E+00
   2.112200E-03   0.000000E+00   2.260000E-02   1.800000E-03   1.000000E+00
   2.130100E-03   0.000000E+00   6.800000E-02   5.000000E-03   1.000000E+00
   2.140900E-03   0.000000E+00   1.440000E-02   1.100000E-03   1.000000E+00
# reference:
#   author: H.WEIGMANN, G.ROHR, J.WINTER
#   title: -NEUTRON CAPTURE MEASUREMENTS AND RESONANCE PARAMETERS  OF MO-ISOTOPES.-
#   journal: Conf: 3rd Conf.Neutron Cross-Sections+Tech.,Knoxville 1971, p.749 (1971)
