# header:
#   title: Th232(n,res) resonance parameter
#   source: EXFOR
#   user: Arjan Koning
#   date: 2024-01-18
#   format: YANDF-0.1
# exfor:
#   author: Rahn
#   year: 1972
#   subentry: 102740032
#   X4 reaction: 90-TH-232(N,EL),,WID/RED,,G
#   X4 source: IAEA-NDS C5 file, database version 2023-08-08
#   X4 link: https://nds.iaea.org/EXFOR/102740032
# target:
#   Z: 90
#   A: 232
#   nuclide: Th232
# reaction:
#   type: (n,res)
#   ENDF_MF: 402
#   ENDF_MT: 151
# datablock:
#   quantity: resonance parameter
#   columns: 5
#   entries: 62
##       E             dE             par           dpar       Normalization
##     [eV]           [eV]            []             []             []
   5.884000E-05   7.000000E-08   3.600000E-03   1.800000E-03   1.000000E+00
   9.008000E-05   8.000000E-08   3.200000E-03   1.600000E-03   1.000000E+00
   1.282100E-04   1.200000E-07   8.500000E-03   2.000000E-03   1.000000E+00
   1.457200E-04   1.500000E-07   1.410000E-02   3.000000E-03   1.000000E+00
   1.786200E-04   2.100000E-07   6.900000E-03   2.200000E-03   1.000000E+00
   2.024100E-04   2.500000E-07   2.800000E-03   1.400000E-03   1.000000E+00
   2.108700E-04   2.600000E-07   1.800000E-03   9.000000E-04   1.000000E+00
   2.193000E-04   2.800000E-07   1.700000E-03   9.000000E-04   1.000000E+00
   2.422300E-04   1.600000E-07   2.100000E-03   1.100000E-03   1.000000E+00
   2.901200E-04   2.100000E-07   2.200000E-03   1.100000E-03   1.000000E+00
   3.023000E-04   2.300000E-07   5.200000E-03   2.200000E-03   1.000000E+00
   3.092000E-04   2.400000E-07   3.000000E-03   1.400000E-03   1.000000E+00
   3.214700E-04   2.500000E-07   1.900000E-03   1.000000E-03   1.000000E+00
   3.382600E-04   2.600000E-07   2.600000E-03   1.300000E-03   1.000000E+00
   3.614700E-04   3.100000E-07   3.200000E-03   1.600000E-03   1.000000E+00
   3.804000E-04   3.300000E-07   4.000000E-03   1.300000E-03   1.000000E+00
   4.026200E-04   3.600000E-07   3.000000E-03   1.500000E-03   1.000000E+00
   5.335500E-04   2.700000E-07   4.900000E-03   1.700000E-03   1.000000E+00
   5.354500E-04   2.700000E-07   7.100000E-03   2.000000E-03   1.000000E+00
   6.606600E-04   3.700000E-07   3.200000E-03   1.300000E-03   1.000000E+00
   7.717000E-04   4.000000E-07   1.900000E-03   1.000000E-03   1.000000E+00
   8.467000E-04   5.000000E-07   1.600000E-03   8.000000E-04   1.000000E+00
   8.693000E-04   5.000000E-07   7.700000E-03   2.800000E-03   1.000000E+00
   9.192600E-04   3.000000E-07   2.900000E-03   1.400000E-03   1.000000E+00
   9.342400E-04   3.100000E-07   1.900000E-03   9.000000E-04   1.000000E+00
   1.021380E-03   3.500000E-07   2.900000E-03   1.300000E-03   1.000000E+00
   1.043740E-03   3.700000E-07   5.300000E-03   2.000000E-03   1.000000E+00
   1.073730E-03   3.900000E-07   1.600000E-03   8.000000E-04   1.000000E+00
   1.115900E-03   4.000000E-07   8.000000E-03   2.400000E-03   1.000000E+00
   1.132700E-03   4.000000E-07   2.200000E-03   1.100000E-03   1.000000E+00
   1.217300E-03   4.000000E-07   3.900000E-03   1.400000E-03   1.000000E+00
   1.223800E-03   4.000000E-07   2.600000E-03   1.200000E-03   1.000000E+00
   1.233300E-03   4.000000E-07   4.800000E-03   1.700000E-03   1.000000E+00
   1.260800E-03   5.000000E-07   3.700000E-03   1.300000E-03   1.000000E+00
   1.261700E-03   5.000000E-07   5.600000E-03   1.800000E-03   1.000000E+00
   1.287840E-03   2.500000E-07   3.000000E-03   1.300000E-03   1.000000E+00
   1.345650E-03   2.700000E-07   5.300000E-03   2.000000E-03   1.000000E+00
   1.349440E-03   2.700000E-07   4.400000E-03   1.600000E-03   1.000000E+00
   1.384590E-03   2.900000E-07   1.600000E-03   9.000000E-04   1.000000E+00
   1.441300E-03   3.000000E-07   6.100000E-03   2.500000E-03   1.000000E+00
   1.469270E-03   3.100000E-07   1.400000E-03   8.000000E-04   1.000000E+00
   1.509560E-03   3.200000E-07   1.660000E-02   3.400000E-03   1.000000E+00
   1.610470E-03   3.600000E-07   3.500000E-03   1.500000E-03   1.000000E+00
   1.689650E-03   3.800000E-07   5.900000E-03   2.100000E-03   1.000000E+00
   1.767100E-03   4.000000E-07   5.500000E-03   2.200000E-03   1.000000E+00
   1.897100E-03   4.000000E-07   6.500000E-03   2.600000E-03   1.000000E+00
   2.015400E-03   4.000000E-07   2.400000E-03   1.300000E-03   1.000000E+00
   2.055500E-03   5.000000E-07   1.500000E-03   8.000000E-04   1.000000E+00
   2.158500E-03   5.000000E-07   5.500000E-03   2.300000E-03   1.000000E+00
   2.170100E-03   5.000000E-07   7.900000E-03   2.900000E-03   1.000000E+00
   2.206800E-03   5.000000E-07   5.600000E-03   2.400000E-03   1.000000E+00
   2.307200E-03   5.000000E-07   7.600000E-03   2.900000E-03   1.000000E+00
   2.329500E-03   6.000000E-07   4.900000E-03   2.100000E-03   1.000000E+00
   2.427400E-03   6.000000E-07   5.500000E-03   2.400000E-03   1.000000E+00
   2.434600E-03   6.000000E-07   6.800000E-03   3.000000E-03   1.000000E+00
   2.462500E-03   6.000000E-07   8.000000E-03   3.200000E-03   1.000000E+00
   2.604000E-03   7.000000E-07   3.300000E-03   1.700000E-03   1.000000E+00
   2.803400E-03   8.000000E-07   8.500000E-03   3.500000E-03   1.000000E+00
   2.843200E-03   8.000000E-07   2.700000E-03   1.400000E-03   1.000000E+00
   2.861200E-03   8.000000E-07   1.450000E-02   5.000000E-03   1.000000E+00
   2.870400E-03   8.000000E-07   2.700000E-03   1.500000E-03   1.000000E+00
   2.932000E-03   8.000000E-07   2.700000E-03   1.500000E-03   1.000000E+00
# reference:
#   author: F.Rahn,H.S.Camarda,G.Hacken,W.W.Havens Jr,H.I.Liou, J.Rainwater,M.Slagowitz,S.Wynchank
#   title: Neutron resonance spectroscopy. X. 232Th and 238U
#   journal: Jour: Physical Review, Part C, Nuclear Physics, Vol.6, p.1854 (1972)
