# header:
#   title: U238(n,res) resonance parameter
#   source: EXFOR
#   user: Arjan Koning
#   date: 2024-01-18
#   format: YANDF-0.1
# exfor:
#   author: Rosen
#   year: 1960
#   subentry: 124600023
#   X4 reaction: 92-U-238(N,G),,WID
#   X4 source: IAEA-NDS C5 file, database version 2023-08-08
#   X4 link: https://nds.iaea.org/EXFOR/124600023
# target:
#   Z: 92
#   A: 238
#   nuclide: U238
# reaction:
#   type: (n,res)
#   ENDF_MF: 402
#   ENDF_MT: 151
# datablock:
#   quantity: resonance parameter
#   columns: 5
#   entries: 28
##       E             dE             par           dpar       Normalization
##     [eV]           [eV]            []             []             []
   1.028000E-04   1.000000E-07   2.100000E-02   6.000000E-03   1.000000E+00
   1.170000E-04   1.000000E-07   2.100000E-02   6.000000E-03   1.000000E+00
   1.657000E-04   2.000000E-07   1.400000E-02   1.400000E-02   1.000000E+00
   1.900000E-04   2.000000E-07   2.200000E-02   6.000000E-03   1.000000E+00
   2.091000E-04   2.000000E-07   2.650000E-02   4.000000E-03   1.000000E+00
   2.380000E-04   3.000000E-07   2.050000E-02   4.000000E-03   1.000000E+00
   2.745000E-04   4.000000E-07   2.250000E-02   3.000000E-03   1.000000E+00
   2.920000E-04   4.000000E-07   1.900000E-02   5.000000E-03   1.000000E+00
   3.490000E-04   5.000000E-07   2.200000E-02   3.000000E-03   1.000000E+00
   3.990000E-04   6.000000E-07   4.000000E-02   1.600000E-02   1.000000E+00
   4.120000E-04   7.000000E-07   1.800000E-02   6.000000E-03   1.000000E+00
   4.360000E-04   7.000000E-07   2.000000E-02   8.000000E-03   1.000000E+00
   4.650000E-04   8.000000E-07   1.800000E-02   1.400000E-02   1.000000E+00
   4.800000E-04   8.000000E-07   3.500000E-02   2.500000E-02   1.000000E+00
   5.200000E-04   9.000000E-07   2.850000E-02   4.000000E-03   1.000000E+00
   5.370000E-04   1.000000E-06   2.430000E-02   3.000000E-03   1.000000E+00
   5.820000E-04   1.100000E-06   2.300000E-02   3.000000E-03   1.000000E+00
   5.970000E-04   1.100000E-06   2.300000E-02   3.000000E-03   1.000000E+00
   6.220000E-04   1.200000E-06   2.400000E-02   3.000000E-03   1.000000E+00
   6.630000E-04   1.300000E-06   2.550000E-02   3.000000E-03   1.000000E+00
   6.960000E-04   1.400000E-06   2.520000E-02   3.000000E-03   1.000000E+00
   7.110000E-04   1.500000E-06   3.300000E-02   1.700000E-02   1.000000E+00
   7.930000E-04   1.700000E-06   1.500000E-02   1.300000E-02   1.000000E+00
   8.260000E-04   1.900000E-06   3.200000E-02   5.000000E-03   1.000000E+00
   9.110000E-04   2.100000E-06   3.470000E-02   7.000000E-03   1.000000E+00
   9.420000E-04   2.300000E-06   2.500000E-02   3.000000E-03   1.000000E+00
   9.620000E-04   2.300000E-06   2.350000E-02   3.000000E-03   1.000000E+00
   9.970000E-04   2.500000E-06   3.000000E-02   6.000000E-03   1.000000E+00
# reference:
#   author: J.L.Rosen,J.S.Desjardins,J.Rainwater,W.W.Havens Jr
#   title: Slow neutron resonance spectroscopy. I. U238.
#   journal: Jour: Physical Review, Vol.118, p.687 (1960)
