# header:
#   title: Yb176(n,res) resonance parameter
#   source: EXFOR
#   user: Arjan Koning
#   date: 2024-01-18
#   format: YANDF-0.1
# exfor:
#   author: Liou
#   year: 1973
#   subentry: 100810211
#   X4 reaction: 70-YB-176(N,0),,EN
#   X4 source: IAEA-NDS C5 file, database version 2023-08-08
#   X4 link: https://nds.iaea.org/EXFOR/100810211
# target:
#   Z: 70
#   A: 176
#   nuclide: Yb176
# reaction:
#   type: (n,res)
#   ENDF_MF: 402
#   ENDF_MT: 151
# datablock:
#   quantity: resonance parameter
#   columns: 5
#   entries: 68
##       E             dE             par           dpar       Normalization
##     [eV]           [eV]            []             []             []
   9.787999E-05   1.100000E-07   9.788000E+01   1.100000E-01   1.000000E+00
   1.484500E-04   2.000000E-07   1.484500E+02   2.000000E-01   1.000000E+00
   3.978500E-04   4.400000E-07   3.978500E+02   4.400000E-01   1.000000E+00
   4.883000E-04   6.000000E-07   4.883000E+02   6.000000E-01   1.000000E+00
   7.260000E-04   1.070000E-06   7.260000E+02   1.070000E+00   1.000000E+00
   9.499000E-04   8.100000E-07   9.499000E+02   8.100000E-01   1.000000E+00
   9.928200E-04   8.600000E-07   9.928200E+02   8.600000E-01   1.000000E+00
   1.182000E-03   6.000000E-07   1.182000E+03   6.000000E-01   1.000000E+00
   1.392500E-03   7.000000E-07   1.392500E+03   7.000000E-01   1.000000E+00
   1.571500E-03   1.700000E-06   1.571500E+03   1.700000E+00   1.000000E+00
   1.606800E-03   9.000000E-07   1.606800E+03   9.000000E-01   1.000000E+00
   1.915900E-03   1.200000E-06   1.915900E+03   1.200000E+00   1.000000E+00
   2.009300E-03   6.000000E-07   2.009300E+03   6.000000E-01   1.000000E+00
   2.180100E-03   7.000000E-07   2.180100E+03   7.000000E-01   1.000000E+00
   2.487100E-03   9.000000E-07   2.487100E+03   9.000000E-01   1.000000E+00
   2.508800E-03   9.000000E-07   2.508800E+03   9.000000E-01   1.000000E+00
   2.722400E-03   1.000000E-06   2.722400E+03   1.000000E+00   1.000000E+00
   2.929100E-03   1.100000E-06   2.929100E+03   1.100000E+00   1.000000E+00
   3.234300E-03   1.300000E-06   3.234300E+03   1.300000E+00   1.000000E+00
   3.360700E-03   2.700000E-06   3.360700E+03   2.700000E+00   1.000000E+00
   3.660000E-03   1.500000E-06   3.660000E+03   1.500000E+00   1.000000E+00
   3.781100E-03   1.600000E-06   3.781100E+03   1.600000E+00   1.000000E+00
   3.792300E-03   1.600000E-06   3.792300E+03   1.600000E+00   1.000000E+00
   4.300300E-03   2.000000E-06   4.300300E+03   2.000000E+00   1.000000E+00
   4.351000E-03   2.000000E-06   4.351000E+03   2.000000E+00   1.000000E+00
   4.620200E-03   2.200000E-06   4.620200E+03   2.200000E+00   1.000000E+00
   5.037700E-03   2.500000E-06   5.037700E+03   2.500000E+00   1.000000E+00
   5.382600E-03   2.700000E-06   5.382600E+03   2.700000E+00   1.000000E+00
   5.481300E-03   2.800000E-06   5.481300E+03   2.800000E+00   1.000000E+00
   5.716300E-03   3.000000E-06   5.716300E+03   3.000000E+00   1.000000E+00
   6.001700E-03   3.200000E-06   6.001700E+03   3.200000E+00   1.000000E+00
   6.315800E-03   3.500000E-06   6.315800E+03   3.500000E+00   1.000000E+00
   6.480400E-03   3.600000E-06   6.480400E+03   3.600000E+00   1.000000E+00
   6.722600E-03   3.800000E-06   6.722600E+03   3.800000E+00   1.000000E+00
   6.955300E-03   4.000000E-06   6.955300E+03   4.000000E+00   1.000000E+00
   7.331100E-03   4.300000E-06   7.331100E+03   4.300000E+00   1.000000E+00
   7.555200E-03   4.500000E-06   7.555200E+03   4.500000E+00   1.000000E+00
   7.801500E-03   4.700000E-06   7.801500E+03   4.700000E+00   1.000000E+00
   8.200600E-03   5.100000E-06   8.200600E+03   5.100000E+00   1.000000E+00
   8.595500E-03   5.500000E-06   8.595500E+03   5.500000E+00   1.000000E+00
   8.739100E-03   5.600000E-06   8.739100E+03   5.600000E+00   1.000000E+00
   8.984599E-03   5.900000E-06   8.984600E+03   5.900000E+00   1.000000E+00
   9.217000E-03   6.100000E-06   9.217000E+03   6.100000E+00   1.000000E+00
   9.495700E-03   6.400000E-06   9.495700E+03   6.400000E+00   1.000000E+00
   9.721300E-03   6.600000E-06   9.721300E+03   6.600000E+00   1.000000E+00
   9.853900E-03   6.700000E-06   9.853900E+03   6.700000E+00   1.000000E+00
   1.051500E-02   7.000000E-06   1.051500E+04   7.000000E+00   1.000000E+00
   1.162900E-02   9.000000E-06   1.162900E+04   9.000000E+00   1.000000E+00
   1.173300E-02   9.000000E-06   1.173300E+04   9.000000E+00   1.000000E+00
   1.204300E-02   9.000000E-06   1.204300E+04   9.000000E+00   1.000000E+00
   1.208900E-02   9.000000E-06   1.208900E+04   9.000000E+00   1.000000E+00
   1.243200E-02   1.000000E-05   1.243200E+04   1.000000E+01   1.000000E+00
   1.276100E-02   1.000000E-05   1.276100E+04   1.000000E+01   1.000000E+00
   1.340800E-02   1.100000E-05   1.340800E+04   1.100000E+01   1.000000E+00
   1.360100E-02   1.100000E-05   1.360100E+04   1.100000E+01   1.000000E+00
   1.373200E-02   1.100000E-05   1.373200E+04   1.100000E+01   1.000000E+00
   1.405100E-02   1.200000E-05   1.405100E+04   1.200000E+01   1.000000E+00
   1.424200E-02   1.200000E-05   1.424200E+04   1.200000E+01   1.000000E+00
   1.506700E-02   1.300000E-05   1.506700E+04   1.300000E+01   1.000000E+00
   1.516900E-02   1.300000E-05   1.516900E+04   1.300000E+01   1.000000E+00
   1.607700E-02   4.400000E-05   1.607700E+04   4.400000E+01   1.000000E+00
   1.771300E-02   1.600000E-05   1.771300E+04   1.600000E+01   1.000000E+00
   1.779400E-02   1.600000E-05   1.779400E+04   1.600000E+01   1.000000E+00
   1.815600E-02   1.700000E-05   1.815600E+04   1.700000E+01   1.000000E+00
   1.878300E-02   1.800000E-05   1.878300E+04   1.800000E+01   1.000000E+00
   1.898800E-02   1.800000E-05   1.898800E+04   1.800000E+01   1.000000E+00
   1.949900E-02   1.900000E-05   1.949900E+04   1.900000E+01   1.000000E+00
   1.964900E-02   1.900000E-05   1.964900E+04   1.900000E+01   1.000000E+00
# reference:
#   author: H.I.LIOU,H.S.CAMARDA,G.HACKEN,F.RAHN,J.RAINWATER, M.SLAGOWITZ,S.WYNCHANK
#   title: Neutron resonance spectroscopy. XI. The separated  isotopes of Yb.
#   journal: Jour: Physical Review, Part C, Nuclear Physics, Vol.7, p.823 (1973)
